Folder: FWTPET/XRD (part 2)

File: H-560.RAW
BANK       1    3529     352  CONST  2000.84    1.70     0.0     0.0         STD
     692     626     611     635     609     616     624     628     612     606
     580     566     576     620     588     589     557     558     592     583
     552     576     560     604     617     550     590     595     593     579
     545     575     584     554     563     541     547     532     518     534
     527     519     529     481     474     524     522     505     518     516
     510     511     518     509     492     503     491     501     465     492
     451     497     498     480     478     447     444     443     465     483
     476     460     451     433     477     483     440     453     450     433
     450     461     435     417     448     456     465     433     425     452
     459     441     473     424     410     425     418     430     390     422
     407     407     384     378     377     409     422     393     404     392
     372     377     382     350     394     367     372     398     395     396
     378     377     376     385     379     378     405     400     364     356
     362     380     359     354     342     391     381     349     351     368
     337     346     334     337     340     336     350     342     348     345
     341     320     335     347     336     361     349     308     316     353
     325     332     322     303     314     334     350     344     326     332
     313     313     341     338     317     316     307     315     314     287
     298     281     295     299     325     322     335     325     323     309
     287     304     295     255     274     276     285     284     317     284
     293     295     284     287     290     305     291     272     273     277
     254     276     268     271     320     286     262     290     277     237
     286     292     282     265     289     271     258     271     274     269
     289     253     246     255     259     276     270     275     272     277
     262     279     264     255     262     264     273     262     253     265
     260     248     285     258     257     239     243     280     255     242
     240     243     252     239     249     261     254     237     236     257
     280     235     237     251     267     252     263     245     259     238
     245     254     253     243     255     255     238     251     248     268
     280     281     283     286     292     305     330     315     329     307
     864     893     867     866     890     845     832     814     792     714
     364     322     305     296     312     292     288     286     302     296
     252     262     276     266     260     287     291     283     266     266
     246     248     238     262     276     251     262     258     268     255
     233     221     243     266     256     259     264     254     253     225
     296     292     307     317     318     324     314     327     341     336
    2114    2771    3174    3141    2911    2736    2879    3035    2960    2797
     450     462     449     456     430     394     425     367     378     379
     370     340     344     348     377     345     359     345     360     354
     514     541     515     557     596     640     681     721     733     759
    2979    3033    3039    2911    2795    2729    2572    2508    2211    1982
     444     435     430     413     369     373     377     326     346     337
     231     255     223     237     229     224     218     221     221     261
     186     198     203     206     188     200     192     191     198     193
     188     174     162     181     182     170     172     166     190     171
     187     175     181     166     174     176     167     156     156     159
     172     185     155     172     162     166     171     181     168     169
     162     146     142     145     156     176     160     146     162     171
     211     190     217     250     285     308     346     426     527     558
     149     155     152     152     151     162     154     148     155     138
     154     145     130     156     167     136     153     128     144     153
     127     134     141     138     133     127     129     130     136     137
     128     148     123     116     143     128     142     126     121     137
     136     141     136     138     133     128     124     133     128     127
     140     131     119     124     133     132     142     122     136     126
     121     131     128     112     122     113     123     117     121     128
     135     110     132     113     117     122     125     118     104     115
     118     107     110     119     127     127     109     103     117     121
     113     121     106     119     108     123     104     145     112     115
     106     107     111     116     116     107     123     114     105     117
     113     116     124     127     135     112     121     101     104     121
     112      94      90     105     115     125     111     103     110     116
     112     109      98     117     113     107     109     103     111     121
     129     117     108     108     114     123     116     122     101     122
     143     131     131     136     145     132     147     149     142     145
     389     440     501     501     497     538     565     573     566     576
     223     195     226     196     189     196     203     188     181     177
     120     136     137     120     137     131     115      94     124     132
     108     120     105     106     114     106     108     114     124     105
     107     107     103      97     104     103      99     108      95      99
     106     114     111     109     100     100     112     105     104     118
      97      98     103     115     116     107     102     124     117     105
     104     104     100     101     110     110     106      98     103     116
     102     103     108      98     105     115     101      97      93     115
      89      95      94      96      97      86      84      89      91     100
      84      99      89     105      81     103     130      95     108      87
      91      92      95      92      97      99     102     101      97      92
      77     103      97      83      96      85      90      95     101      76
      87      89      94      99     105      93      87      87      95     104
     100     110     102     120     111      97     104      93      91     105
      90      96     100      92      89      96      93      88      90      97
     104      99     103      93      89     106      98      80      88      88
     118     110     102     114     115     109     111     123     110      98
      96     115     105     128     128     121     124     143     117     136
     178     169     158     158     166     177     182     181     173     195
     360     350     387     368     375     394     405     421     416     440
     249     229     218     223     221     215     203     193     207     186
     130     111     123     123     136     121     109     114     122     106
     166     202     223     261     322     398     449     419     400     367
      92     100     102      98      89      95     103     104      94      98
      95      96      93      84      86      82      84      80      96     101
      95      88      98     103      88     104     106      76      78      86
      97      95      86      86      73      91      91      91      89      70
      79      88     104      99      80      88      98     100      92      76
      91      92      86      96      82      84      84      86      73      92
      93      93     100     104     106     100      92      93      96      93
     102      94      98      96     102      85      95     100      78     104
     100     102      83      90      90      92      98      99      88      96
     106     115     105      97     116     119     121     109     123     126
     177     186     186     197     200     200     217     208     218     237
     675     605     633     671     616     592     571     608     579     541
     213     207     201     184     188     195     196     176     174     171
     132     114     111     123      93     118     128     110     101     117
     102     100     106     101     107     101     109     106      88      88
      93      89     107      81     104     105      96     100     101      97
      83      95     102     107      96      94     102      97      88      89
      96     110     113      84      86     107     111     107     100      90
     139     133     107     119     149     138     121     128     136     131
     117     140     108     141     113     132     112     113     112     132
     120     116     125     130     120     108     126     129     124     127
     155     149     155     153     187     178     176     201     198     197
     365     357     362     408     399     409     416     437     440     435
     378     343     319     313     293     293     261     270     269     262
     215     218     226     232     237     237     255     241     227     250
     521     464     462     448     387     385     402     391     371     394
     166     160     171     156     137     146     150     157     149     138
     118     109     119     101     100     127      95      93     109     115
      92     100      96      76      80      85      92      95      99      86
      88      84      80      85      84      98      88      91      76

File: P710.asc
15 	51
15.26 	46
15.52 	58
15.78 	56
16.04 	52
16.3 	55
16.56 	50
16.82 	50
17.08 	41
17.34 	52
17.6 	28
17.86 	32
18.12 	26
18.38 	32
18.64 	33
18.9 	29
19.16 	19
19.42 	22
19.68 	24
19.94 	26
20.2 	38
20.46 	37
20.72 	32
20.98 	49
21.24 	31
21.5 	34
21.76 	34
22.02 	42
22.28 	32
22.54 	33
22.8 	29
23.06 	35
23.32 	25
23.58 	42
23.84 	27
24.1 	33
24.36 	30
24.62 	31
24.88 	24
25.14 	29
25.4 	21
25.66 	34
25.92 	28
26.18 	21
26.44 	26
26.7 	30
26.96 	21
27.22 	24
27.48 	15
27.74 	19
28 	24
28.26 	19
28.52 	21
28.78 	20
29.04 	26
29.3 	23
29.56 	23
29.82 	23
30.08 	22
30.34 	27
30.6 	24
30.86 	18
31.12 	18
31.38 	15
31.64 	19
31.9 	35
32.16 	20
32.42 	16
32.68 	18
32.94 	17
33.2 	19
33.46 	16
33.72 	8
33.98 	20
34.24 	24
34.5 	20
34.76 	29
35.02 	24
35.28 	56
35.54 	43
35.8 	35
36.06 	11
36.32 	20
36.58 	16
36.84 	24
37.1 	27
37.36 	27
37.62 	27
37.88 	35
38.14 	113
38.4 	1229
38.66 	123
38.92 	41
39.18 	63
39.44 	50
39.7 	37
39.96 	55
40.22 	106
40.48 	183
40.74 	71
41 	31
41.26 	24
41.52 	20
41.78 	13
42.04 	24
42.3 	25
42.56 	19
42.82 	23
43.08 	14
43.34 	23
43.6 	20
43.86 	21
44.12 	34
44.38 	76
44.64 	516
44.9 	34
45.16 	16
45.42 	14
45.68 	20
45.94 	15
46.2 	22
46.46 	7
46.72 	20
46.98 	16
47.24 	22
47.5 	19
47.76 	20
48.02 	19
48.28 	9
48.54 	16
48.8 	13
49.06 	12
49.32 	17
49.58 	15
49.84 	13
50.1 	12
50.36 	9
50.62 	23
50.88 	11
51.14 	13
51.4 	14
51.66 	15
51.92 	20
52.18 	17
52.44 	15
52.7 	13
52.96 	22
53.22 	31
53.48 	36
53.74 	23
54 	14
54.26 	11
54.52 	10
54.78 	11
55.04 	5
55.3 	12
55.56 	13
55.82 	18
56.08 	15
56.34 	16
56.6 	14
56.86 	20
57.12 	18
57.38 	9
57.64 	14
57.9 	15
58.16 	13
58.42 	14
58.68 	7
58.94 	12
59.2 	9
59.46 	15
59.72 	10
59.98 	8
60.24 	13
60.5 	13
60.76 	12
61.02 	18
61.28 	6
61.54 	15
61.8 	9
62.06 	6
62.32 	17
62.58 	16
62.84 	12
63.1 	20
63.36 	28
63.62 	32
63.88 	27
64.14 	14
64.4 	15
64.66 	21
64.92 	188
65.18 	101
65.44 	17
65.7 	14
65.96 	10
66.22 	14
66.48 	11
66.74 	16
67 	12
67.26 	12
67.52 	11
67.78 	21
68.04 	12
68.3 	8
68.56 	12
68.82 	10
69.08 	8
69.34 	5
69.6 	12
69.86 	9
70.12 	23
70.38 	29
70.64 	17
70.9 	28
71.16 	32
71.42 	19
71.68 	17
71.94 	9
72.2 	11
72.46 	11
72.72 	14
72.98 	6
73.24 	14
73.5 	7
73.76 	10
74.02 	12
74.28 	13
74.54 	17
74.8 	11
75.06 	13
75.32 	15
75.58 	10
75.84 	17
76.1 	13
76.36 	20
76.62 	32
76.88 	29
77.14 	24
77.4 	20
77.66 	18
77.92 	53
78.18 	106
78.43999 	40
78.7 	18
78.96 	12
79.22 	16
79.48 	12
79.74 	11
80 	10
80.26 	15
80.52 	11
80.78 	9
81.04 	9
81.3 	11
81.56 	7
81.82 	12
82.08 	9
82.34 	60
82.6 	38
82.86 	16
83.12 	11
83.38 	11
83.64 	9
83.9 	6
84.16 	11
84.42 	10
84.68 	9
84.93999 	12
85.2 	13
85.46 	8
85.72 	11
85.98 	5
86.24 	11
86.5 	9
86.76 	12
87.02 	6
87.28 	10
87.54 	10
87.8 	9
88.06 	13
88.32 	8
88.58 	14
88.84 	3
89.1 	15
89.36 	10
89.62 	12
89.88 	10
90 	5

File: P1120.asc
15 	43
15.26 	61
15.52 	49
15.78 	53
16.04 	46
16.3 	49
16.56 	46
16.82 	37
17.08 	43
17.34 	49
17.6 	36
17.86 	31
18.12 	30
18.38 	34
18.64 	22
18.9 	32
19.16 	32
19.42 	28
19.68 	28
19.94 	28
20.2 	34
20.46 	38
20.72 	25
20.98 	36
21.24 	28
21.5 	26
21.76 	45
22.02 	28
22.28 	30
22.54 	32
22.8 	26
23.06 	29
23.32 	31
23.58 	33
23.84 	31
24.1 	34
24.36 	27
24.62 	28
24.88 	30
25.14 	35
25.4 	46
25.66 	25
25.92 	28
26.18 	26
26.44 	29
26.7 	40
26.96 	23
27.22 	27
27.48 	30
27.74 	28
28 	33
28.26 	32
28.52 	30
28.78 	28
29.04 	37
29.3 	39
29.56 	32
29.82 	20
30.08 	21
30.34 	36
30.6 	17
30.86 	30
31.12 	27
31.38 	30
31.64 	23
31.9 	27
32.16 	25
32.42 	30
32.68 	20
32.94 	35
33.2 	31
33.46 	30
33.72 	22
33.98 	32
34.24 	13
34.5 	29
34.76 	33
35.02 	42
35.28 	71
35.54 	67
35.8 	44
36.06 	29
36.32 	25
36.58 	24
36.84 	30
37.1 	29
37.36 	38
37.62 	42
37.88 	47
38.14 	121
38.4 	611
38.66 	350
38.92 	56
39.18 	60
39.44 	56
39.7 	57
39.96 	78
40.22 	149
40.48 	279
40.74 	123
41 	45
41.26 	41
41.52 	29
41.78 	40
42.04 	41
42.3 	26
42.56 	26
42.82 	35
43.08 	27
43.34 	33
43.6 	25
43.86 	35
44.12 	29
44.38 	64
44.64 	357
44.9 	68
45.16 	26
45.42 	29
45.68 	23
45.94 	22
46.2 	22
46.46 	14
46.72 	24
46.98 	21
47.24 	19
47.5 	25
47.76 	21
48.02 	15
48.28 	17
48.54 	19
48.8 	22
49.06 	26
49.32 	14
49.58 	22
49.84 	23
50.1 	20
50.36 	19
50.62 	25
50.88 	22
51.14 	27
51.4 	28
51.66 	13
51.92 	16
52.18 	15
52.44 	21
52.7 	19
52.96 	29
53.22 	49
53.48 	68
53.74 	32
54 	18
54.26 	20
54.52 	25
54.78 	17
55.04 	15
55.3 	17
55.56 	22
55.82 	16
56.08 	19
56.34 	17
56.6 	13
56.86 	18
57.12 	17
57.38 	23
57.64 	20
57.9 	14
58.16 	15
58.42 	21
58.68 	13
58.94 	20
59.2 	18
59.46 	15
59.72 	10
59.98 	17
60.24 	18
60.5 	22
60.76 	21
61.02 	15
61.28 	11
61.54 	17
61.8 	16
62.06 	22
62.32 	12
62.58 	18
62.84 	28
63.1 	24
63.36 	41
63.62 	78
63.88 	51
64.14 	42
64.4 	22
64.66 	30
64.92 	96
65.18 	90
65.44 	20
65.7 	23
65.96 	27
66.22 	13
66.48 	26
66.74 	21
67 	11
67.26 	13
67.52 	25
67.78 	23
68.04 	19
68.3 	19
68.56 	18
68.82 	16
69.08 	24
69.34 	25
69.6 	23
69.86 	24
70.12 	12
70.38 	16
70.64 	32
70.9 	56
71.16 	60
71.42 	28
71.68 	26
71.94 	20
72.2 	21
72.46 	16
72.72 	18
72.98 	18
73.24 	12
73.5 	13
73.76 	19
74.02 	25
74.28 	23
74.54 	16
74.8 	30
75.06 	34
75.32 	17
75.58 	18
75.84 	27
76.1 	22
76.36 	23
76.62 	46
76.88 	61
77.14 	45
77.4 	30
77.66 	36
77.92 	97
78.18 	206
78.43999 	84
78.7 	25
78.96 	24
79.22 	28
79.48 	20
79.74 	22
80 	19
80.26 	26
80.52 	19
80.78 	8
81.04 	14
81.3 	15
81.56 	31
81.82 	17
82.08 	33
82.34 	58
82.6 	45
82.86 	35
83.12 	25
83.38 	14
83.64 	14
83.9 	17
84.16 	19
84.42 	13
84.68 	13
84.93999 	17
85.2 	20
85.46 	12
85.72 	19
85.98 	18
86.24 	15
86.5 	14
86.76 	17
87.02 	20
87.28 	19
87.54 	10
87.8 	17
88.06 	8
88.32 	19
88.58 	17
88.84 	11
89.1 	10
89.36 	17
89.62 	9
89.88 	10
90 	13

File: P-560.asc
15 	28
15.26 	45
15.52 	53
15.78 	45
16.04 	55
16.3 	49
16.56 	51
16.82 	67
17.08 	42
17.34 	48
17.6 	37
17.86 	35
18.12 	15
18.38 	32
18.64 	31
18.9 	20
19.16 	23
19.42 	25
19.68 	38
19.94 	32
20.2 	17
20.46 	23
20.72 	42
20.98 	42
21.24 	38
21.5 	30
21.76 	34
22.02 	39
22.28 	37
22.54 	41
22.8 	47
23.06 	39
23.32 	26
23.58 	33
23.84 	33
24.1 	30
24.36 	31
24.62 	46
24.88 	31
25.14 	36
25.4 	31
25.66 	31
25.92 	35
26.18 	33
26.44 	28
26.7 	33
26.96 	33
27.22 	29
27.48 	28
27.74 	36
28 	28
28.26 	17
28.52 	27
28.78 	24
29.04 	20
29.3 	33
29.56 	22
29.82 	21
30.08 	19
30.34 	19
30.6 	38
30.86 	27
31.12 	29
31.38 	36
31.64 	26
31.9 	27
32.16 	34
32.42 	24
32.68 	26
32.94 	30
33.2 	16
33.46 	29
33.72 	20
33.98 	24
34.24 	18
34.5 	30
34.76 	29
35.02 	35
35.28 	73
35.54 	65
35.8 	42
36.06 	27
36.32 	34
36.58 	24
36.84 	28
37.1 	24
37.36 	15
37.62 	30
37.88 	33
38.14 	72
38.4 	1086
38.66 	164
38.92 	55
39.18 	45
39.44 	40
39.7 	44
39.96 	90
40.22 	214
40.48 	379
40.74 	99
41 	67
41.26 	35
41.52 	41
41.78 	28
42.04 	31
42.3 	41
42.56 	24
42.82 	34
43.08 	20
43.34 	38
43.6 	31
43.86 	28
44.12 	38
44.38 	64
44.64 	979
44.9 	83
45.16 	33
45.42 	29
45.68 	20
45.94 	23
46.2 	26
46.46 	25
46.72 	27
46.98 	30
47.24 	32
47.5 	29
47.76 	25
48.02 	27
48.28 	28
48.54 	17
48.8 	26
49.06 	24
49.32 	23
49.58 	20
49.84 	23
50.1 	24
50.36 	19
50.62 	14
50.88 	20
51.14 	29
51.4 	22
51.66 	26
51.92 	19
52.18 	26
52.44 	23
52.7 	19
52.96 	36
53.22 	62
53.48 	30
53.74 	27
54 	16
54.26 	20
54.52 	13
54.78 	16
55.04 	14
55.3 	13
55.56 	14
55.82 	18
56.08 	19
56.34 	18
56.6 	16
56.86 	18
57.12 	20
57.38 	24
57.64 	11
57.9 	17
58.16 	21
58.42 	18
58.68 	19
58.94 	13
59.2 	12
59.46 	22
59.72 	20
59.98 	16
60.24 	18
60.5 	14
60.76 	23
61.02 	24
61.28 	14
61.54 	18
61.8 	7
62.06 	20
62.32 	14
62.58 	14
62.84 	17
63.1 	19
63.36 	37
63.62 	43
63.88 	23
64.14 	25
64.4 	16
64.66 	32
64.92 	206
65.18 	191
65.44 	28
65.7 	12
65.96 	15
66.22 	13
66.48 	17
66.74 	18
67 	12
67.26 	19
67.52 	18
67.78 	23
68.04 	17
68.3 	18
68.56 	20
68.82 	14
69.08 	23
69.34 	17
69.6 	26
69.86 	21
70.12 	19
70.38 	28
70.64 	17
70.9 	48
71.16 	59
71.42 	29
71.68 	24
71.94 	16
72.2 	24
72.46 	10
72.72 	23
72.98 	17
73.24 	14
73.5 	14
73.76 	16
74.02 	21
74.28 	25
74.54 	25
74.8 	18
75.06 	11
75.32 	18
75.58 	19
75.84 	19
76.1 	27
76.36 	28
76.62 	45
76.88 	45
77.14 	38
77.4 	30
77.66 	31
77.92 	106
78.18 	260
78.43999 	105
78.7 	24
78.96 	20
79.22 	19
79.48 	21
79.74 	14
80 	19
80.26 	20
80.52 	23
80.78 	14
81.04 	10
81.3 	19
81.56 	16
81.82 	21
82.08 	28
82.34 	75
82.6 	48
82.86 	21
83.12 	13
83.38 	13
83.64 	16
83.9 	13
84.16 	15
84.42 	17
84.68 	13
84.93999 	18
85.2 	13
85.46 	22
85.72 	18
85.98 	20
86.24 	15
86.5 	16
86.76 	18
87.02 	18
87.28 	15
87.54 	21
87.8 	24
88.06 	10
88.32 	22
88.58 	20
88.84 	15
89.1 	14
89.36 	12
89.62 	16
89.88 	15
90 	16