Folder: FWTPET/XRD

File: H560.asc
15 	37
15.26 	38
15.52 	57
15.78 	39
16.04 	42
16.3 	39
16.56 	41
16.82 	40
17.08 	37
17.34 	31
17.6 	32
17.86 	28
18.12 	40
18.38 	32
18.64 	36
18.9 	24
19.16 	27
19.42 	23
19.68 	31
19.94 	28
20.2 	29
20.46 	25
20.72 	12
20.98 	33
21.24 	28
21.5 	23
21.76 	30
22.02 	32
22.28 	19
22.54 	25
22.8 	38
23.06 	36
23.32 	28
23.58 	12
23.84 	27
24.1 	31
24.36 	29
24.62 	32
24.88 	30
25.14 	21
25.4 	22
25.66 	17
25.92 	21
26.18 	19
26.44 	21
26.7 	25
26.96 	20
27.22 	28
27.48 	22
27.74 	20
28 	17
28.26 	21
28.52 	16
28.78 	18
29.04 	20
29.3 	30
29.56 	23
29.82 	24
30.08 	28
30.34 	21
30.6 	23
30.86 	21
31.12 	20
31.38 	24
31.64 	21
31.9 	16
32.16 	14
32.42 	19
32.68 	24
32.94 	20
33.2 	16
33.46 	19
33.72 	20
33.98 	19
34.24 	18
34.5 	21
34.76 	24
35.02 	17
35.28 	74
35.54 	36
35.8 	22
36.06 	26
36.32 	32
36.58 	21
36.84 	21
37.1 	21
37.36 	23
37.62 	26
37.88 	32
38.14 	134
38.4 	628
38.66 	65
38.92 	37
39.18 	41
39.44 	43
39.7 	26
39.96 	55
40.22 	146
40.48 	180
40.74 	69
41 	28
41.26 	26
41.52 	21
41.78 	25
42.04 	14
42.3 	8
42.56 	26
42.82 	17
43.08 	20
43.34 	18
43.6 	12
43.86 	22
44.12 	29
44.38 	60
44.64 	125
44.9 	19
45.16 	22
45.42 	14
45.68 	21
45.94 	17
46.2 	15
46.46 	15
46.72 	15
46.98 	16
47.24 	13
47.5 	19
47.76 	15
48.02 	14
48.28 	12
48.54 	18
48.8 	12
49.06 	13
49.32 	10
49.58 	13
49.84 	13
50.1 	16
50.36 	19
50.62 	10
50.88 	9
51.14 	8
51.4 	12
51.66 	10
51.92 	26
52.18 	18
52.44 	13
52.7 	13
52.96 	18
53.22 	41
53.48 	24
53.74 	17
54 	21
54.26 	18
54.52 	14
54.78 	17
55.04 	11
55.3 	12
55.56 	19
55.82 	11
56.08 	12
56.34 	14
56.6 	13
56.86 	10
57.12 	19
57.38 	18
57.64 	10
57.9 	16
58.16 	7
58.42 	13
58.68 	8
58.94 	14
59.2 	5
59.46 	11
59.72 	16
59.98 	9
60.24 	14
60.5 	15
60.76 	16
61.02 	13
61.28 	15
61.54 	13
61.8 	8
62.06 	14
62.32 	14
62.58 	16
62.84 	16
63.1 	17
63.36 	45
63.62 	33
63.88 	17
64.14 	22
64.4 	23
64.66 	29
64.92 	171
65.18 	36
65.44 	10
65.7 	14
65.96 	7
66.22 	14
66.48 	13
66.74 	20
67 	12
67.26 	14
67.52 	9
67.78 	10
68.04 	11
68.3 	10
68.56 	10
68.82 	14
69.08 	8
69.34 	11
69.6 	17
69.86 	12
70.12 	15
70.38 	12
70.64 	16
70.9 	39
71.16 	28
71.42 	24
71.68 	8
71.94 	12
72.2 	13
72.46 	14
72.72 	14
72.98 	9
73.24 	13
73.5 	10
73.76 	13
74.02 	8
74.28 	15
74.54 	14
74.8 	16
75.06 	13
75.32 	8
75.58 	9
75.84 	16
76.1 	21
76.36 	15
76.62 	28
76.88 	28
77.14 	19
77.4 	22
77.66 	32
77.92 	78
78.18 	70
78.43999 	16
78.7 	5
78.96 	17
79.22 	7
79.48 	9
79.74 	7
80 	12
80.26 	11
80.52 	11
80.78 	14
81.04 	12
81.3 	12
81.56 	11
81.82 	15
82.08 	24
82.34 	20
82.6 	14
82.86 	18
83.12 	7
83.38 	11
83.64 	10
83.9 	6
84.16 	7
84.42 	8
84.68 	9
84.93999 	11
85.2 	10
85.46 	8
85.72 	5
85.98 	10
86.24 	6
86.5 	9
86.76 	11
87.02 	7
87.28 	11
87.54 	9
87.8 	9
88.06 	16
88.32 	13
88.58 	8
88.84 	12
89.1 	3
89.36 	11
89.62 	8
89.88 	11
90 	13

File: H710.asc
15 	32
15.26 	38
15.52 	47
15.78 	53
16.04 	49
16.3 	43
16.56 	42
16.82 	46
17.08 	25
17.34 	47
17.6 	31
17.86 	27
18.12 	20
18.38 	27
18.64 	19
18.9 	27
19.16 	16
19.42 	25
19.68 	29
19.94 	32
20.2 	28
20.46 	24
20.72 	24
20.98 	34
21.24 	29
21.5 	31
21.76 	31
22.02 	30
22.28 	19
22.54 	22
22.8 	21
23.06 	28
23.32 	20
23.58 	15
23.84 	21
24.1 	23
24.36 	23
24.62 	29
24.88 	29
25.14 	20
25.4 	19
25.66 	22
25.92 	23
26.18 	20
26.44 	20
26.7 	23
26.96 	25
27.22 	24
27.48 	17
27.74 	23
28 	19
28.26 	24
28.52 	18
28.78 	23
29.04 	12
29.3 	16
29.56 	19
29.82 	21
30.08 	23
30.34 	14
30.6 	11
30.86 	15
31.12 	20
31.38 	21
31.64 	16
31.9 	13
32.16 	23
32.42 	26
32.68 	24
32.94 	18
33.2 	21
33.46 	18
33.72 	21
33.98 	12
34.24 	17
34.5 	18
34.76 	24
35.02 	14
35.28 	30
35.54 	19
35.8 	23
36.06 	16
36.32 	18
36.58 	14
36.84 	14
37.1 	26
37.36 	23
37.62 	37
37.88 	28
38.14 	145
38.4 	766
38.66 	63
38.92 	30
39.18 	23
39.44 	25
39.7 	26
39.96 	42
40.22 	41
40.48 	118
40.74 	35
41 	27
41.26 	13
41.52 	18
41.78 	27
42.04 	19
42.3 	18
42.56 	25
42.82 	14
43.08 	26
43.34 	22
43.6 	17
43.86 	39
44.12 	46
44.38 	146
44.64 	686
44.9 	47
45.16 	23
45.42 	25
45.68 	19
45.94 	16
46.2 	19
46.46 	19
46.72 	15
46.98 	27
47.24 	21
47.5 	20
47.76 	18
48.02 	17
48.28 	23
48.54 	14
48.8 	15
49.06 	15
49.32 	15
49.58 	17
49.84 	22
50.1 	14
50.36 	17
50.62 	13
50.88 	16
51.14 	15
51.4 	21
51.66 	13
51.92 	11
52.18 	20
52.44 	13
52.7 	12
52.96 	12
53.22 	25
53.48 	29
53.74 	21
54 	12
54.26 	17
54.52 	7
54.78 	8
55.04 	11
55.3 	14
55.56 	6
55.82 	15
56.08 	9
56.34 	12
56.6 	9
56.86 	12
57.12 	12
57.38 	10
57.64 	9
57.9 	16
58.16 	13
58.42 	14
58.68 	9
58.94 	20
59.2 	13
59.46 	14
59.72 	13
59.98 	15
60.24 	9
60.5 	12
60.76 	14
61.02 	15
61.28 	14
61.54 	11
61.8 	6
62.06 	11
62.32 	14
62.58 	12
62.84 	14
63.1 	12
63.36 	14
63.62 	28
63.88 	10
64.14 	19
64.4 	22
64.66 	27
64.92 	234
65.18 	56
65.44 	21
65.7 	7
65.96 	8
66.22 	15
66.48 	15
66.74 	14
67 	13
67.26 	10
67.52 	24
67.78 	13
68.04 	15
68.3 	9
68.56 	6
68.82 	13
69.08 	14
69.34 	12
69.6 	11
69.86 	11
70.12 	8
70.38 	18
70.64 	18
70.9 	27
71.16 	32
71.42 	10
71.68 	20
71.94 	9
72.2 	3
72.46 	14
72.72 	12
72.98 	11
73.24 	16
73.5 	14
73.76 	17
74.02 	17
74.28 	12
74.54 	10
74.8 	17
75.06 	11
75.32 	14
75.58 	11
75.84 	8
76.1 	11
76.36 	16
76.62 	21
76.88 	23
77.14 	17
77.4 	21
77.66 	42
77.92 	206
78.18 	183
78.43999 	36
78.7 	13
78.96 	15
79.22 	13
79.48 	18
79.74 	14
80 	7
80.26 	10
80.52 	14
80.78 	17
81.04 	14
81.3 	11
81.56 	11
81.82 	15
82.08 	39
82.34 	44
82.6 	25
82.86 	13
83.12 	11
83.38 	13
83.64 	9
83.9 	12
84.16 	15
84.42 	12
84.68 	16
84.93999 	8
85.2 	11
85.46 	5
85.72 	11
85.98 	16
86.24 	13
86.5 	7
86.76 	9
87.02 	5
87.28 	9
87.54 	6
87.8 	10
88.06 	8
88.32 	12
88.58 	8
88.84 	9
89.1 	10
89.36 	14
89.62 	18
89.88 	12
90 	5

File: H900.asc
15 	53
15.26 	63
15.52 	68
15.78 	73
16.04 	67
16.3 	67
16.56 	71
16.82 	68
17.08 	64
17.34 	62
17.6 	44
17.86 	32
18.12 	28
18.38 	33
18.64 	27
18.9 	28
19.16 	36
19.42 	25
19.68 	27
19.94 	34
20.2 	44
20.46 	34
20.72 	42
20.98 	40
21.24 	24
21.5 	45
21.76 	39
22.02 	38
22.28 	30
22.54 	45
22.8 	39
23.06 	34
23.32 	43
23.58 	31
23.84 	36
24.1 	37
24.36 	42
24.62 	24
24.88 	21
25.14 	24
25.4 	22
25.66 	25
25.92 	25
26.18 	18
26.44 	30
26.7 	29
26.96 	25
27.22 	27
27.48 	16
27.74 	31
28 	20
28.26 	23
28.52 	23
28.78 	29
29.04 	24
29.3 	26
29.56 	18
29.82 	35
30.08 	20
30.34 	27
30.6 	31
30.86 	26
31.12 	28
31.38 	17
31.64 	26
31.9 	20
32.16 	25
32.42 	16
32.68 	23
32.94 	20
33.2 	22
33.46 	27
33.72 	21
33.98 	29
34.24 	20
34.5 	32
34.76 	38
35.02 	38
35.28 	34
35.54 	63
35.8 	34
36.06 	30
36.32 	21
36.58 	35
36.84 	20
37.1 	25
37.36 	21
37.62 	38
37.88 	29
38.14 	43
38.4 	404
38.66 	565
38.92 	58
39.18 	36
39.44 	45
39.7 	34
39.96 	52
40.22 	108
40.48 	217
40.74 	77
41 	50
41.26 	28
41.52 	22
41.78 	19
42.04 	27
42.3 	27
42.56 	20
42.82 	21
43.08 	27
43.34 	35
43.6 	22
43.86 	42
44.12 	28
44.38 	58
44.64 	331
44.9 	311
45.16 	38
45.42 	19
45.68 	18
45.94 	17
46.2 	19
46.46 	20
46.72 	23
46.98 	22
47.24 	18
47.5 	22
47.76 	23
48.02 	17
48.28 	13
48.54 	13
48.8 	30
49.06 	15
49.32 	14
49.58 	24
49.84 	24
50.1 	12
50.36 	24
50.62 	16
50.88 	22
51.14 	20
51.4 	19
51.66 	16
51.92 	15
52.18 	17
52.44 	18
52.7 	24
52.96 	21
53.22 	33
53.48 	43
53.74 	26
54 	22
54.26 	17
54.52 	28
54.78 	19
55.04 	21
55.3 	18
55.56 	13
55.82 	19
56.08 	15
56.34 	18
56.6 	19
56.86 	16
57.12 	21
57.38 	21
57.64 	17
57.9 	19
58.16 	22
58.42 	7
58.68 	25
58.94 	11
59.2 	16
59.46 	16
59.72 	23
59.98 	26
60.24 	17
60.5 	14
60.76 	22
61.02 	22
61.28 	20
61.54 	20
61.8 	19
62.06 	15
62.32 	16
62.58 	18
62.84 	16
63.1 	13
63.36 	24
63.62 	33
63.88 	33
64.14 	22
64.4 	31
64.66 	26
64.92 	44
65.18 	138
65.44 	22
65.7 	13
65.96 	31
66.22 	20
66.48 	16
66.74 	22
67 	13
67.26 	25
67.52 	17
67.78 	28
68.04 	16
68.3 	21
68.56 	8
68.82 	12
69.08 	13
69.34 	15
69.6 	15
69.86 	22
70.12 	16
70.38 	20
70.64 	26
70.9 	41
71.16 	42
71.42 	25
71.68 	22
71.94 	23
72.2 	18
72.46 	14
72.72 	20
72.98 	18
73.24 	19
73.5 	19
73.76 	22
74.02 	22
74.28 	18
74.54 	13
74.8 	23
75.06 	17
75.32 	24
75.58 	19
75.84 	16
76.1 	22
76.36 	19
76.62 	37
76.88 	46
77.14 	38
77.4 	32
77.66 	28
77.92 	52
78.18 	387
78.43999 	181
78.7 	34
78.96 	23
79.22 	34
79.48 	23
79.74 	20
80 	19
80.26 	24
80.52 	14
80.78 	22
81.04 	26
81.3 	16
81.56 	26
81.82 	20
82.08 	28
82.34 	119
82.6 	90
82.86 	30
83.12 	20
83.38 	16
83.64 	22
83.9 	22
84.16 	8
84.42 	21
84.68 	20
84.93999 	20
85.2 	15
85.46 	19
85.72 	24
85.98 	19
86.24 	18
86.5 	20
86.76 	17
87.02 	26
87.28 	27
87.54 	11
87.8 	20
88.06 	22
88.32 	16
88.58 	18
88.84 	21
89.1 	16
89.36 	18
89.62 	15
89.88 	12
90 	15

File: H1120.asc
15 	40
15.26 	42
15.52 	40
15.78 	36
16.04 	42
16.3 	57
16.56 	62
16.82 	56
17.08 	55
17.34 	40
17.6 	29
17.86 	23
18.12 	24
18.38 	28
18.64 	24
18.9 	20
19.16 	30
19.42 	21
19.68 	35
19.94 	32
20.2 	22
20.46 	22
20.72 	27
20.98 	22
21.24 	24
21.5 	29
21.76 	26
22.02 	27
22.28 	30
22.54 	23
22.8 	24
23.06 	21
23.32 	26
23.58 	35
23.84 	26
24.1 	16
24.36 	34
24.62 	22
24.88 	24
25.14 	17
25.4 	21
25.66 	28
25.92 	23
26.18 	21
26.44 	28
26.7 	20
26.96 	19
27.22 	21
27.48 	27
27.74 	15
28 	14
28.26 	14
28.52 	20
28.78 	25
29.04 	12
29.3 	22
29.56 	19
29.82 	24
30.08 	23
30.34 	15
30.6 	10
30.86 	12
31.12 	16
31.38 	14
31.64 	10
31.9 	13
32.16 	18
32.42 	14
32.68 	13
32.94 	14
33.2 	11
33.46 	12
33.72 	13
33.98 	15
34.24 	10
34.5 	16
34.76 	16
35.02 	11
35.28 	34
35.54 	27
35.8 	14
36.06 	16
36.32 	16
36.58 	12
36.84 	22
37.1 	17
37.36 	15
37.62 	23
37.88 	22
38.14 	37
38.4 	176
38.66 	160
38.92 	38
39.18 	24
39.44 	21
39.7 	16
39.96 	23
40.22 	55
40.48 	112
40.74 	28
41 	17
41.26 	15
41.52 	12
41.78 	17
42.04 	9
42.3 	8
42.56 	16
42.82 	6
43.08 	11
43.34 	13
43.6 	12
43.86 	10
44.12 	25
44.38 	21
44.64 	151
44.9 	91
45.16 	9
45.42 	13
45.68 	16
45.94 	9
46.2 	9
46.46 	10
46.72 	13
46.98 	11
47.24 	8
47.5 	12
47.76 	10
48.02 	19
48.28 	12
48.54 	5
48.8 	19
49.06 	14
49.32 	9
49.58 	10
49.84 	7
50.1 	9
50.36 	15
50.62 	10
50.88 	12
51.14 	2
51.4 	5
51.66 	6
51.92 	4
52.18 	9
52.44 	10
52.7 	13
52.96 	11
53.22 	17
53.48 	16
53.74 	6
54 	4
54.26 	8
54.52 	9
54.78 	8
55.04 	6
55.3 	1
55.56 	11
55.82 	8
56.08 	5
56.34 	4
56.6 	8
56.86 	8
57.12 	14
57.38 	7
57.64 	1
57.9 	5
58.16 	4
58.42 	2
58.68 	5
58.94 	8
59.2 	1
59.46 	7
59.72 	4
59.98 	4
60.24 	7
60.5 	8
60.76 	6
61.02 	8
61.28 	3
61.54 	4
61.8 	9
62.06 	4
62.32 	9
62.58 	4
62.84 	7
63.1 	10
63.36 	19
63.62 	12
63.88 	7
64.14 	8
64.4 	4
64.66 	13
64.92 	13
65.18 	53
65.44 	9
65.7 	8
65.96 	8
66.22 	2
66.48 	10
66.74 	4
67 	6
67.26 	6
67.52 	6
67.78 	12
68.04 	9
68.3 	7
68.56 	4
68.82 	7
69.08 	5
69.34 	5
69.6 	7
69.86 	4
70.12 	7
70.38 	5
70.64 	6
70.9 	14
71.16 	20
71.42 	10
71.68 	12
71.94 	5
72.2 	6
72.46 	4
72.72 	7
72.98 	9
73.24 	3
73.5 	10
73.76 	4
74.02 	8
74.28 	4
74.54 	10
74.8 	7
75.06 	11
75.32 	6
75.58 	8
75.84 	6
76.1 	8
76.36 	9
76.62 	12
76.88 	12
77.14 	7
77.4 	5
77.66 	4
77.92 	15
78.18 	72
78.43999 	39
78.7 	11
78.96 	4
79.22 	5
79.48 	7
79.74 	5
80 	6
80.26 	4
80.52 	6
80.78 	5
81.04 	2
81.3 	4
81.56 	5
81.82 	4
82.08 	6
82.34 	16
82.6 	14
82.86 	7
83.12 	8
83.38 	3
83.64 	5
83.9 	4
84.16 	7
84.42 	5
84.68 	6
84.93999 	4
85.2 	3
85.46 	4
85.72 	1
85.98 	1
86.24 	3
86.5 	5
86.76 	7
87.02 	6
87.28 	4
87.54 	6
87.8 	7
88.06 	5
88.32 	4
88.58 	5
88.84 	3
89.1 	2
89.36 	2
89.62 	6
89.88 	6
90 	4

File: H-560.CSV
No.,Pos. [°2Th.],Iobs [cts],Icalc [cts],Iback [cts],CT [s],ESD,D spacings
1,20.0084,692.0004,618.9299,618.9299,300.3550, ,4.43414
22,20.3654,575.8749,599.5557,599.5557,300.3550, ,4.35721
43,20.7224,569.1609,582.9845,582.9845,300.3550, ,4.28294
64,21.0794,604.1605,567.9699,567.9699,300.3550, ,4.21121
85,21.4364,546.3863,552.4167,552.4167,300.3550, ,4.14187
106,21.7934,509.0488,529.7887,529.7887,300.3550, ,4.07483
127,22.1504,521.7247,511.4845,511.4845,300.3550, ,4.00995
148,22.5074,511.2956,498.7445,498.7445,300.3550, ,3.94715
169,22.8644,507.5693,481.3593,481.3593,300.3550, ,3.88632
190,23.2214,483.1953,470.5075,470.5075,300.3550, ,3.82737
211,23.5784,475.8949,459.0925,459.0925,300.3550, ,3.77022
232,23.9354,428.2384,441.3243,441.3243,300.3550, ,3.71479
253,24.2924,450.0643,430.8758,430.8758,300.3550, ,3.66100
274,24.6494,423.5978,414.9267,414.9267,300.3550, ,3.60878
295,25.0064,415.3524,397.7282,397.7282,300.3550, ,3.55807
316,25.3634,401.2258,393.9198,393.9198,300.3550, ,3.50879
337,25.7204,371.8910,380.3357,380.3357,300.3550, ,3.46089
358,26.0774,378.3937,370.0470,370.0470,300.3550, ,3.41431
379,26.4344,352.5622,367.0347,367.0347,300.3550, ,3.36901
400,26.7914,368.0685,360.3314,360.3314,300.3550, ,3.32492
421,27.1484,337.3826,347.9580,347.9580,300.3550, ,3.28200
442,27.5054,331.6311,336.0973,336.0973,300.3550, ,3.24021
463,27.8624,334.8064,332.6063,332.6063,300.3550, ,3.19950
484,28.2194,303.0536,324.7873,324.7873,300.3550, ,3.15983
505,28.5764,326.1430,318.0101,318.0101,300.3550, ,3.12116
526,28.9334,317.5777,313.2265,313.2265,300.3550, ,3.08345
547,29.2904,334.5760,312.2363,312.2363,300.3550, ,3.04668
568,29.6474,273.8173,299.2370,299.2370,300.3550, ,3.01080
589,30.0044,272.6030,287.4858,287.4858,300.3550, ,2.97578
610,30.3614,276.9484,283.8610,283.8610,300.3550, ,2.94160
631,30.7184,253.9348,277.8130,277.8130,300.3550, ,2.90822
652,31.0754,267.5477,273.7557,273.7557,300.3550, ,2.87562
673,31.4324,275.1343,270.5914,270.5914,300.3550, ,2.84377
694,31.7894,254.7468,266.3643,266.3643,300.3550, ,2.81265
715,32.1464,257.0386,263.7814,263.7814,300.3550, ,2.78222
736,32.5034,249.8979,261.7982,259.8766,300.3550, ,2.75247
757,32.8604,242.5833,253.9921,251.4845,300.3550, ,2.72338
778,33.2174,245.9453,249.3552,245.9468,300.3550, ,2.69492
799,33.5744,244.4614,247.6314,242.7341,300.3550, ,2.66708
820,33.9314,237.6428,248.9814,241.3593,300.3550, ,2.63983
841,34.2884,245.0662,254.8149,241.3745,300.3550, ,2.61316
862,34.6454,272.9939,271.9395,242.3699,300.3550, ,2.58704
883,35.0024,333.7428,350.6316,243.9711,300.3550, ,2.56147
904,35.3594,865.7826,891.2818,245.8376,300.3550, ,2.53642
925,35.7164,363.7606,357.3162,247.6612,300.3550, ,2.51188
946,36.0734,285.6687,279.1243,249.1643,300.3550, ,2.48784
967,36.4304,291.4588,263.6545,250.0985,300.3550, ,2.46427
988,36.7874,245.2440,257.9138,250.2430,300.3550, ,2.44118
1009,37.1444,239.0662,253.0342,250.9497,300.3550, ,2.41853
1030,37.5014,225.1755,266.4613,246.1838,300.3550, ,2.39632
1051,37.8584,295.9937,290.9858,240.2682,300.3550, ,2.37454
1072,38.2154,519.7828,536.3008,249.5997,300.3550, ,2.35318
1093,38.5724,1829.67,1814.83,1089.84,300.3550, ,2.33221
1114,38.9294,455.9044,431.3979,344.3438,300.3550, ,2.31164
1135,39.2864,394.4290,372.2318,343.5778,300.3550, ,2.29146
1156,39.6434,382.9346,374.1497,236.0370,300.3550, ,2.27164
1177,40.0004,680.6619,617.4651,173.2345,300.3550, ,2.25218
1198,40.3574,2821.38,2917.59,153.6580,300.3550, ,2.23308
1219,40.7144,787.1094,900.0547,154.7385,300.3550, ,2.21432
1240,41.0714,337.1397,345.0141,160.8782,300.3550, ,2.19589
1261,41.4284,230.7505,242.8149,163.1508,300.3550, ,2.17779
1282,41.7854,227.3347,203.0566,159.0164,300.3550, ,2.16001
1303,42.1424,191.3854,179.9133,152.0510,300.3550, ,2.14253
1324,42.4994,180.7312,170.8817,151.6897,300.3550, ,2.12536
1345,42.8564,172.8639,170.3917,170.3917,300.3550, ,2.10848
1366,43.2134,180.0388,167.0628,167.0628,300.3550, ,2.09188
1387,43.5704,170.7632,161.5053,161.5053,300.3550, ,2.07556
1408,43.9274,168.0873,154.7596,151.9176,300.3550, ,2.05952
1429,44.2844,150.6992,156.9407,146.4347,300.3550, ,2.04374
1450,44.6414,558.0887,566.2111,162.7846,300.3550, ,2.02822
1471,44.9984,148.5646,156.9944,140.5726,300.3550, ,2.01296
1492,45.3554,131.8620,142.9899,139.4358,300.3550, ,1.99794
1513,45.7124,139.1290,138.6422,138.0599,300.3550, ,1.98316
1534,46.0694,137.5057,136.2015,136.2015,300.3550, ,1.96862
1555,46.4264,162.0252,133.3604,133.3604,300.3550, ,1.95431
1576,46.7834,134.6865,129.0854,129.0854,300.3550, ,1.94023
1597,47.1404,123.9932,130.6585,130.6585,300.3550, ,1.92636
1618,47.4974,146.5640,129.8848,129.8848,300.3550, ,1.91271
1639,47.8544,122.1268,126.4663,126.4663,300.3550, ,1.89928
1660,48.2114,128.3587,122.0503,122.0503,300.3550, ,1.88604
1681,48.5684,135.2789,118.4465,118.4465,300.3550, ,1.87301
1702,48.9254,114.3361,117.8412,117.8412,300.3550, ,1.86017
1723,49.2824,122.0353,119.6850,119.6850,300.3550, ,1.84753
1744,49.6394,119.1562,116.0273,116.0273,300.3550, ,1.83508
1765,49.9964,131.5289,114.4854,113.0670,300.3550, ,1.82281
1786,50.3534,106.6321,112.4840,110.7041,300.3550, ,1.81072
1807,50.7104,120.9070,111.1462,108.8467,300.3550, ,1.79880
1828,51.0674,114.3914,110.4963,107.4119,300.3550, ,1.78706
1849,51.4244,138.0079,110.6760,106.3247,300.3550, ,1.77549
1870,51.7814,120.5297,112.1102,105.5179,300.3550, ,1.76409
1891,52.1384,128.8132,116.0619,104.9320,300.3550, ,1.75285
1912,52.4954,125.9513,127.0910,104.5150,300.3550, ,1.74176
1933,52.8524,171.6493,170.5002,104.2216,300.3550, ,1.73084
1954,53.2094,501.2240,485.4082,104.0138,300.3550, ,1.72006
1975,53.5664,304.4987,289.0980,103.8599,300.3550, ,1.70944
1996,53.9234,169.9245,144.5000,103.7348,300.3550, ,1.69896
2017,54.2804,114.6864,120.2176,103.6196,300.3550, ,1.68863
2038,54.6374,120.3822,112.4085,103.5011,300.3550, ,1.67843
2059,54.9944,102.0935,108.9106,103.3723,300.3550, ,1.66838
2080,55.3514,98.5378,107.0034,103.2317,300.3550, ,1.65846
2101,55.7084,105.9570,105.8155,103.0830,300.3550, ,1.64868
2122,56.0654,109.4529,105.0055,102.9354,300.3550, ,1.63902
2143,56.4224,80.2283,104.4254,102.8032,300.3550, ,1.62949
2164,56.7794,101.3091,103.1651,102.7056,300.3550, ,1.62009
2185,57.1364,96.0576,102.6664,102.6664,300.3550, ,1.61082
2206,57.4934,103.0456,102.7144,102.7144,300.3550, ,1.60166
2227,57.8504,83.6142,98.0970,98.0970,300.3550, ,1.59262
2248,58.2074,103.8797,95.5075,95.5075,300.3550, ,1.58370
2269,58.5644,87.9654,94.0635,94.0635,300.3550, ,1.57490
2290,58.9214,92.4132,93.5076,93.5076,300.3550, ,1.56620
2311,59.2784,76.9713,93.4547,93.4547,300.3550, ,1.55762
2332,59.6354,89.6283,93.5184,93.5184,300.3550, ,1.54914
2353,59.9924,88.8501,94.2907,93.6227,300.3550, ,1.54078
2374,60.3494,120.0155,94.4431,93.6227,300.3550, ,1.53251
2395,60.7064,81.0942,97.1903,96.1589,300.3550, ,1.52435
2416,61.0634,92.7989,94.9462,91.1737,300.3550, ,1.51629
2437,61.4204,98.1419,96.6965,91.5680,300.3550, ,1.50833
2458,61.7774,93.3480,102.6271,95.2599,300.3550, ,1.50047
2479,62.1344,122.2017,112.1150,100.6635,300.3550, ,1.49270
2500,62.4914,135.6871,126.4128,106.3172,300.3550, ,1.48503
2521,62.8484,178.3870,154.2096,110.8805,300.3550, ,1.47745
2542,63.2054,239.2070,248.2099,113.1303,300.3550, ,1.46996
2563,63.5624,452.3410,445.4623,111.9576,300.3550, ,1.46257
2584,63.9194,222.5494,232.5768,106.3646,300.3550, ,1.45526
2605,64.2764,126.1762,136.8071,95.4616,300.3550, ,1.44803
2626,64.6334,128.7321,120.9316,115.3873,300.3550, ,1.44089
2647,64.9904,449.1051,419.6183,102.8933,300.3550, ,1.43384
2668,65.3474,126.0365,114.5295,95.5408,300.3550, ,1.42687
2689,65.7044,93.6487,94.2519,91.7140,300.3550, ,1.41998
2710,66.0614,101.0175,90.8037,89.7924,300.3550, ,1.41316
2731,66.4184,95.3363,88.3674,88.1522,300.3550, ,1.40643
2752,66.7754,93.7085,90.7445,88.7503,300.3550, ,1.39978
2773,67.1324,82.9079,89.8349,87.8126,300.3550, ,1.39320
2794,67.4894,98.7960,88.7769,87.2193,300.3550, ,1.38669
2815,67.8464,71.5924,87.7119,84.9618,300.3550, ,1.38026
2836,68.2034,109.6650,89.5544,86.0766,300.3550, ,1.37391
2857,68.5604,91.5595,90.8184,86.2810,300.3550, ,1.36762
2878,68.9174,88.4357,92.1930,86.0279,300.3550, ,1.36141
2899,69.2744,90.5100,94.5205,85.6683,300.3550, ,1.35526
2920,69.6314,95.9170,99.2127,85.4545,300.3550, ,1.34918
2941,69.9884,106.0184,107.8988,82.2664,300.3550, ,1.34317
2962,70.3454,141.9546,136.1542,80.2521,300.3550, ,1.33723
2983,70.7024,283.8405,273.5472,81.7898,300.3550, ,1.33135
3004,71.0594,670.9667,615.9123,85.2888,300.3550, ,1.32553
3025,71.4164,250.7116,282.0722,88.7912,300.3550, ,1.31978
3046,71.7734,140.8434,146.0517,89.9807,300.3550, ,1.31409
3067,72.1304,127.7237,113.9437,89.5466,300.3550, ,1.30846
3088,72.4874,98.3371,102.3278,88.4877,300.3550, ,1.30290
3109,72.8444,106.5957,105.9610,98.7872,300.3550, ,1.29739
3130,73.2014,96.8931,102.7145,96.4719,300.3550, ,1.29194
3151,73.5584,83.0815,101.7985,95.9129,300.3550, ,1.28655
3172,73.9154,100.0173,99.1820,97.1897,300.3550, ,1.28122
3193,74.2724,103.3212,103.1943,95.7317,300.3550, ,1.27594
3214,74.6294,118.5112,127.3985,94.4746,300.3550, ,1.27072
3235,74.9864,128.1977,135.2002,95.9856,300.3550, ,1.26555
3256,75.3434,102.8705,114.4882,102.8316,300.3550, ,1.26044
3277,75.7004,126.0621,120.1881,117.5800,300.3550, ,1.25538
3298,76.0574,152.5312,111.0047,94.0491,300.3550, ,1.25037
3319,76.4144,232.6947,236.3254,130.0786,300.3550, ,1.24542
3340,76.7714,434.7652,452.6607,130.0262,300.3550, ,1.24051
3361,77.1284,378.0514,340.7891,128.0057,300.3550, ,1.23566
3382,77.4854,213.6003,222.2979,203.3344,300.3550, ,1.23086
3403,77.8424,302.6304,253.8832,175.9087,300.3550, ,1.22610
3424,78.1994,447.9850,439.0425,150.2984,300.3550, ,1.22140
3445,78.5564,195.4905,200.6417,127.5506,300.3550, ,1.21674
3466,78.9134,119.2320,126.6300,108.7404,300.3550, ,1.21213
3487,79.2704,95.4079,102.8724,94.9693,300.3550, ,1.20756
3508,79.6274,90.6082,91.8106,87.3672,300.3550, ,1.20304
3529,79.9844,75.7283,91.5445,90.5109,300.3550, ,1.19857