Folder: FWTPET/XRD/Base Metal

File: AA6061 - 2.txt
20,1293.33
20.25,1140
20.5,1233.33
20.75,1226.67
21,1126.67
21.25,973.333
21.5,1146.67
21.75,1106.67
22,1133.33
22.25,966.667
22.5,953.333
22.75,1093.33
23,980
23.25,953.333
23.5,1013.33
23.75,960
24,906.667
24.25,1066.67
24.5,866.667
24.75,880
25,846.667
25.25,880
25.5,873.333
25.75,900
26,760
26.25,720
26.5,846.667
26.75,846.667
27,720
27.25,660
27.5,680
27.75,573.333
28,706.667
28.25,740
28.5,613.333
28.75,560
29,753.333
29.25,713.333
29.5,580
29.75,506.667
30,660
30.25,533.333
30.5,573.333
30.75,493.333
31,633.333
31.25,486.667
31.5,406.667
31.75,480
32,540
32.25,613.333
32.5,413.333
32.75,426.667
33,493.333
33.25,480
33.5,500
33.75,533.333
34,546.667
34.25,653.333
34.5,506.667
34.75,513.333
35,513.333
35.25,373.333
35.5,520
35.75,1186.67
36,586.667
36.25,506.667
36.5,373.333
36.75,393.333
37,340
37.25,420
37.5,620
37.75,473.333
38,533.333
38.25,1346.67
38.5,12920
38.75,5093.33
39,946.667
39.25,646.667
39.5,433.333
39.75,526.667
40,346.667
40.25,653.333
40.5,473.333
40.75,433.333
41,346.667
41.25,320
41.5,473.333
41.75,500
42,453.333
42.25,353.333
42.5,333.333
42.75,353.333
43,326.667
43.25,413.333
43.5,386.667
43.75,366.667
44,386.667
44.25,526.667
44.5,1906.67
44.75,19786.7
45,8013.33
45.25,980
45.5,586.667
45.75,553.333
46,466.667
46.25,353.333
46.5,313.333
46.75,286.667
47,300
47.25,333.333
47.5,333.333
47.75,286.667
48,266.667
48.25,220
48.5,246.667
48.75,233.333
49,246.667
49.25,300
49.5,220
49.75,260
50,180
50.25,320
50.5,206.667
50.75,186.667
51,233.333
51.25,226.667
51.5,186.667
51.75,246.667
52,226.667
52.25,253.333
52.5,180
52.75,173.333
53,166.667
53.25,173.333
53.5,220
53.75,186.667
54,173.333
54.25,160
54.5,226.667
54.75,166.667
55,213.333
55.25,180
55.5,193.333
55.75,186.667
56,160
56.25,173.333
56.5,140
56.75,180
57,193.333
57.25,166.667
57.5,286.667
57.75,166.667
58,146.667
58.25,206.667
58.5,253.333
58.75,293.333
59,246.667
59.25,233.333
59.5,226.667
59.75,186.667
60,286.667
60.25,346.667
60.5,213.333
60.75,173.333
61,133.333
61.25,160
61.5,166.667
61.75,166.667
62,173.333
62.25,186.667
62.5,146.667
62.75,260
63,160
63.25,226.667
63.5,300
63.75,200
64,280
64.25,260
64.5,346.667
64.75,793.333
65,3913.33
65.25,8566.67
65.5,1893.33
65.75,560
66,393.333
66.25,380
66.5,273.333
66.75,246.667
67,233.333
67.25,200
67.5,200
67.75,233.333
68,206.667
68.25,200
68.5,166.667
68.75,233.333
69,213.333
69.25,220
69.5,233.333
69.75,213.333
70,166.667
70.25,173.333
70.5,173.333
70.75,166.667
71,166.667
71.25,253.333
71.5,240
71.75,133.333
72,213.333
72.25,220
72.5,233.333
72.75,233.333
73,273.333
73.25,233.333
73.5,206.667
73.75,153.333
74,286.667
74.25,160
74.5,180
74.75,120
75,220
75.25,200
75.5,300
75.75,300
76,193.333
76.25,220
76.5,220
76.75,213.333
77,266.667
77.25,206.667
77.5,266.667
77.75,533.333
78,1786.67
78.25,5833.33
78.5,3873.33
78.75,893.333
79,433.333
79.25,206.667
79.5,273.333
79.75,206.667
80,273.333
80.25,253.333
80.5,213.333
80.75,173.333
81,233.333
81.25,240
81.5,180
81.75,260
82,226.667
82.25,473.333
82.5,833.333
82.75,633.333
83,193.333
83.25,193.333
83.5,246.667
83.75,240
84,213.333
84.25,146.667
84.5,286.667
84.75,180
85,146.667
85.25,173.333
85.5,186.667
85.75,126.667
86,206.667
86.25,126.667
86.5,166.667
86.75,220
87,160
87.25,253.333
87.5,160
87.75,160
88,186.667
88.25,173.333
88.5,186.667
88.75,193.333
89,106.667
89.25,193.333
89.5,153.333
89.75,193.333
90,146.667